timestamp,ax,ay,az,gx,gy,gz,mx,my,mz,ex,ey,ez
1748938416839,-1679,-51,1944,0,-11,0,-16,28,-17,228.36431884765625,40.792823791503906,-1.547499418258667
1748938416840,-1677,-52,1945,0,-11,0,-16,28,-18,228.36431884765625,40.792823791503906,-1.547499418258667
1748938416927,-1679,-52,1944,0,-11,0,-17,28,-19,228.36431884765625,40.792823791503906,-1.547499418258667
1748938416928,-1679,-52,1944,0,-11,0,-17,28,-19,228.36669921875,40.79241943359375,-1.5465420484542847
1748938417027,-1679,-52,1944,0,-11,0,-16,28,-18,228.36669921875,40.79241943359375,-1.5465420484542847
1748938417027,-1679,-52,1944,0,-11,0,-16,28,-18,228.34722900390625,40.797950744628906,-1.5493526458740234
1748938417135,-1679,-52,1944,0,-11,0,-16,28,-16,228.34722900390625,40.797950744628906,-1.5493526458740234
1748938417135,-1679,-52,1944,0,-11,0,-16,28,-16,228.34991455078125,40.79749298095703,-1.5578463077545166
1748938417243,-1679,-52,1944,0,-11,0,-16,28,-16,228.38699340820312,40.80559539794922,-1.5490342378616333
1748938417244,-1679,-52,1944,0,-11,0,-16,28,-18,228.38699340820312,40.80559539794922,-1.5490342378616333
1748938417349,-1679,-52,1944,0,-11,0,-16,27,-17,228.38699340820312,40.80559539794922,-1.5490342378616333
1748938417351,-1679,-52,1944,0,-11,0,-16,27,-17,228.40512084960938,40.807594299316406,-1.5469915866851807
1748938417451,-1679,-52,1944,0,-11,0,-17,28,-17,228.40512084960938,40.807594299316406,-1.5469915866851807
1748938417451,-1679,-52,1944,0,-11,0,-17,28,-17,228.4152069091797,40.80319595336914,-1.5550423860549927
1748938417564,-1679,-52,1944,0,-11,0,-17,28,-18,228.4152069091797,40.80319595336914,-1.5550423860549927
1748938417575,-1679,-52,1944,0,-11,0,-17,28,-18,228.4442901611328,40.8078727722168,-1.5474879741668701
1748938417663,-1679,-52,1944,0,-11,0,-16,28,-18,228.4442901611328,40.8078727722168,-1.5474879741668701
1748938417663,-1679,-52,1944,0,-11,0,-16,28,-18,228.43923950195312,40.80989456176758,-1.5424706935882568
1748938417769,-1679,-52,1944,0,-11,0,-17,28,-18,228.43923950195312,40.80989456176758,-1.5424706935882568
1748938417769,-1679,-52,1944,0,-11,0,-17,28,-18,228.43588256835938,40.804508209228516,-1.5514947175979614
1748938417867,-1678,-52,1944,0,-11,0,-16,28,-17,228.43588256835938,40.804508209228516,-1.5514947175979614
1748938417878,-1678,-52,1944,0,-11,0,-16,28,-17,228.4453125,40.80173110961914,-1.546324610710144
1748938417972,-1678,-52,1944,0,-11,0,-17,28,-18,228.4453125,40.80173110961914,-1.546324610710144
1748938417972,-1678,-52,1944,0,-11,0,-17,28,-18,228.44534301757812,40.79640197753906,-1.5489368438720703
1748938418095,-1678,-52,1944,0,-11,0,-16,28,-18,228.44534301757812,40.79640197753906,-1.5489368438720703
1748938418096,-1678,-52,1944,0,-11,0,-16,28,-18,228.44151306152344,40.79603958129883,-1.5405417680740356
1748938418188,-1678,-52,1944,0,-11,0,-16,28,-18,228.44151306152344,40.79603958129883,-1.5405417680740356
1748938418189,-1678,-52,1944,0,-11,0,-16,28,-18,228.43478393554688,40.79869079589844,-1.5429794788360596
1748938418292,-1678,-52,1944,0,-11,0,-14,29,-18,228.43478393554688,40.79869079589844,-1.5429794788360596
1748938418293,-1678,-52,1944,0,-11,0,-14,29,-18,228.46697998046875,40.810028076171875,-1.5330089330673218
1748938418406,-1678,-52,1944,0,-11,0,-16,28,-18,228.46697998046875,40.810028076171875,-1.5330089330673218
1748938418406,-1678,-52,1944,0,-11,0,-16,28,-18,228.47610473632812,40.80207824707031,-1.5392433404922485
1748938418498,-1678,-52,1945,0,-11,0,-17,28,-18,228.47610473632812,40.80207824707031,-1.5392433404922485
1748938418499,-1678,-52,1945,0,-11,0,-17,28,-18,228.46823120117188,40.79130554199219,-1.5428367853164673
1748938418594,-1678,-52,1944,0,-11,0,-17,28,-18,228.46823120117188,40.79130554199219,-1.5428367853164673
1748938418594,-1678,-52,1944,0,-11,0,-17,28,-18,228.48046875,40.792274475097656,-1.545945405960083
1748938418702,-1678,-52,1944,0,-11,0,-16,28,-18,228.48046875,40.792274475097656,-1.545945405960083
1748938418704,-1678,-52,1944,0,-11,0,-16,28,-18,228.47738647460938,40.79201126098633,-1.546236276626587
1748938418796,-1678,-52,1944,0,-11,0,-17,28,-17,228.47738647460938,40.79201126098633,-1.546236276626587
1748938418810,-1678,-52,1944,0,-11,0,-17,28,-17,228.4700927734375,40.786521911621094,-1.5555387735366821
1748938418934,-1678,-52,1945,0,-11,0,-17,28,-18,228.4700927734375,40.786521911621094,-1.5555387735366821
1748938418935,-1678,-52,1945,0,-11,0,-17,28,-18,228.46533203125,40.786773681640625,-1.5480473041534424
1748938419012,-1678,-52,1944,0,-11,0,-17,28,-17,228.46533203125,40.786773681640625,-1.5480473041534424
1748938419013,-1678,-52,1944,0,-11,0,-17,28,-17,228.46090698242188,40.78827667236328,-1.5501595735549927
1748938419121,-1678,-52,1944,0,-11,0,-17,28,-18,228.46090698242188,40.78827667236328,-1.5501595735549927
1748938419122,-1678,-52,1944,0,-11,0,-17,28,-18,228.4499053955078,40.794090270996094,-1.5485857725143433
1748938419240,-1678,-52,1944,0,-11,0,-16,28,-18,228.4499053955078,40.794090270996094,-1.5485857725143433
1748938419241,-1678,-52,1944,0,-11,0,-16,28,-18,228.43099975585938,40.795562744140625,-1.5474549531936646
1748938419346,-1678,-52,1944,0,-11,0,-16,28,-18,228.43099975585938,40.795562744140625,-1.5474549531936646
1748938419347,-1678,-52,1944,0,-11,0,-16,28,-18,228.41473388671875,40.79353713989258,-1.551369309425354
1748938419428,-1678,-51,1944,0,-11,0,-15,28,-18,228.41473388671875,40.79353713989258,-1.551369309425354
1748938419428,-1678,-51,1944,0,-11,0,-15,28,-18,228.4017333984375,40.78996276855469,-1.5471409559249878
1748938419574,-1678,-52,1944,0,-11,0,-17,28,-18,228.4017333984375,40.78996276855469,-1.5471409559249878
1748938419574,-1678,-52,1944,0,-11,0,-17,28,-18,228.39537048339844,40.785484313964844,-1.5486276149749756
1748938419642,-1678,-52,1945,0,-11,0,-16,28,-19,228.39537048339844,40.785484313964844,-1.5486276149749756
1748938419642,-1678,-52,1945,0,-11,0,-16,28,-19,228.38584899902344,40.790428161621094,-1.5422286987304688
1748938419737,-1678,-52,1944,0,-11,0,-17,27,-18,228.38584899902344,40.790428161621094,-1.5422286987304688
1748938419738,-1678,-52,1944,0,-11,0,-17,27,-18,228.35972595214844,40.78346252441406,-1.5510631799697876
1748938419842,-1678,-52,1944,0,-11,0,-17,28,-18,228.35972595214844,40.78346252441406,-1.5510631799697876
1748938419842,-1678,-52,1944,0,-11,0,-17,28,-18,228.3591766357422,40.78590393066406,-1.5487349033355713
1748938419951,-1679,-52,1943,0,-11,0,-17,28,-18,228.3591766357422,40.78590393066406,-1.5487349033355713
1748938419951,-1679,-52,1943,0,-11,0,-17,28,-18,228.3706512451172,40.800880432128906,-1.5426485538482666
1748938420057,-1678,-52,1943,0,-11,0,-15,28,-18,228.3706512451172,40.800880432128906,-1.5426485538482666
1748938420057,-1678,-52,1943,0,-11,0,-15,28,-18,228.37811279296875,40.80646514892578,-1.5364549160003662
1748938420167,-1678,-52,1943,0,-11,0,-15,28,-18,228.35792541503906,40.796722412109375,-1.5423235893249512
1748938420167,-1678,-52,1943,0,-11,0,-17,28,-19,228.35792541503906,40.796722412109375,-1.5423235893249512
1748938420290,-1678,-52,1943,0,-11,0,-17,27,-18,228.35792541503906,40.796722412109375,-1.5423235893249512
1748938420291,-1678,-52,1943,0,-11,0,-17,27,-18,228.33779907226562,40.78987503051758,-1.549923300743103
1748938420384,-1678,-52,1943,0,-11,0,-17,28,-17,228.33779907226562,40.78987503051758,-1.549923300743103
1748938420385,-1678,-52,1943,0,-11,0,-17,28,-17,228.3444061279297,40.800052642822266,-1.5488389730453491
1748938420493,-1678,-52,1944,0,-11,0,-17,28,-17,228.3444061279297,40.800052642822266,-1.5488389730453491
1748938420493,-1678,-52,1944,0,-11,0,-17,28,-17,228.34329223632812,40.79780197143555,-1.547047734260559
1748938420586,-1678,-52,1944,0,-11,0,-17,28,-17,228.33792114257812,40.80216979980469,-1.5424631834030151
1748938420586,-1678,-52,1944,0,-11,0,-17,28,-19,228.33792114257812,40.80216979980469,-1.5424631834030151
1748938420697,-1678,-52,1944,0,-11,0,-17,28,-19,228.31861877441406,40.800682067871094,-1.536352515220642
1748938420697,-1678,-52,1945,0,-11,0,-15,28,-19,228.31861877441406,40.800682067871094,-1.536352515220642
1748938420789,-1678,-52,1945,0,-11,0,-15,28,-19,228.29769897460938,40.788795471191406,-1.5395056009292603
1748938420789,-1678,-51,1944,0,-11,0,-16,28,-18,228.29769897460938,40.788795471191406,-1.5395056009292603
1748938420898,-1678,-52,1944,0,-11,0,-16,28,-18,228.29769897460938,40.788795471191406,-1.5395056009292603
1748938420899,-1678,-52,1944,0,-11,0,-16,28,-18,228.2801513671875,40.79463577270508,-1.5447229146957397
1748938421006,-1678,-52,1944,0,-11,0,-15,28,-19,228.2801513671875,40.79463577270508,-1.5447229146957397
1748938421007,-1678,-52,1944,0,-11,0,-15,28,-19,228.27369689941406,40.797645568847656,-1.5390843152999878
1748938421131,-1678,-52,1944,0,-11,0,-17,29,-19,228.27369689941406,40.797645568847656,-1.5390843152999878
1748938421132,-1678,-52,1944,0,-11,0,-17,29,-19,228.2881622314453,40.798282623291016,-1.5469598770141602
1748938421228,-1678,-52,1945,0,-11,0,-17,28,-20,228.2881622314453,40.798282623291016,-1.5469598770141602
1748938421229,-1678,-52,1945,0,-11,0,-17,28,-20,228.28207397460938,40.790592193603516,-1.5490614175796509
1748938421333,-1678,-52,1944,0,-11,0,-17,27,-19,228.28207397460938,40.790592193603516,-1.5490614175796509
1748938421333,-1678,-52,1944,0,-11,0,-17,27,-19,228.2530059814453,40.78624725341797,-1.5477277040481567
1748938421426,-1678,-52,1944,0,-11,0,-17,27,-19,228.25814819335938,40.789703369140625,-1.548180341720581
1748938421427,-1678,-52,1944,0,-11,0,-16,28,-18,228.25814819335938,40.789703369140625,-1.548180341720581
1748938421535,-1678,-52,1944,0,-11,0,-17,28,-18,228.25814819335938,40.789703369140625,-1.548180341720581
1748938421536,-1678,-52,1944,0,-11,0,-17,28,-18,228.26156616210938,40.7895393371582,-1.5505039691925049
1748938421645,-1678,-52,1944,0,-11,0,-17,27,-19,228.26156616210938,40.7895393371582,-1.5505039691925049
1748938421646,-1678,-52,1944,0,-11,0,-17,27,-19,228.26194763183594,40.797515869140625,-1.5493354797363281
1748938421738,-1677,-52,1946,0,-11,0,-17,28,-19,228.26194763183594,40.797515869140625,-1.5493354797363281
1748938421739,-1677,-52,1946,0,-11,0,-17,28,-19,228.24356079101562,40.77055358886719,-1.5461214780807495
1748938421832,-1679,-52,1944,0,-11,0,-17,28,-19,228.24356079101562,40.77055358886719,-1.5461214780807495
1748938421852,-1679,-52,1944,0,-11,0,-17,28,-19,228.2264404296875,40.78720474243164,-1.5436408519744873
1748938421949,-1677,-52,1945,0,-11,0,-17,29,-18,228.2264404296875,40.78720474243164,-1.5436408519744873
1748938421949,-1677,-52,1945,0,-11,0,-17,29,-18,228.21945190429688,40.777198791503906,-1.54798424243927
1748938422063,-1677,-52,1945,0,-11,0,-16,29,-19,228.21945190429688,40.777198791503906,-1.54798424243927
1748938422063,-1677,-52,1945,0,-11,0,-16,29,-19,228.22792053222656,40.76943588256836,-1.5383150577545166
1748938422143,-1678,-52,1945,0,-11,0,-17,28,-18,228.22792053222656,40.76943588256836,-1.5383150577545166
1748938422144,-1678,-52,1945,0,-11,0,-17,28,-18,228.2187042236328,40.758941650390625,-1.5510529279708862
1748938422266,-1678,-52,1945,0,-11,0,-16,28,-17,228.2187042236328,40.758941650390625,-1.5510529279708862
1748938422267,-1678,-52,1945,0,-11,0,-16,28,-17,228.2128143310547,40.77415466308594,-1.5412174463272095
1748938422363,-1676,-53,1947,0,-11,0,-17,28,-19,228.2128143310547,40.77415466308594,-1.5412174463272095
1748938422364,-1676,-53,1947,0,-11,0,-17,28,-19,228.1910400390625,40.76803207397461,-1.536997675895691
1748938422482,-1679,-51,1944,0,-11,0,-13,28,-18,228.1910400390625,40.76803207397461,-1.536997675895691
1748938422483,-1679,-51,1944,0,-11,0,-13,28,-18,228.19708251953125,40.775779724121094,-1.5315173864364624
1748938422575,-1679,-51,1944,0,-11,0,-13,28,-18,228.18861389160156,40.79840850830078,-1.5397465229034424
1748938422575,-1679,-52,1943,0,-11,0,-17,29,-19,228.18861389160156,40.79840850830078,-1.5397465229034424
1748938422684,-1679,-52,1943,0,-11,0,-17,28,-18,228.18861389160156,40.79840850830078,-1.5397465229034424
1748938422685,-1679,-52,1943,0,-11,0,-17,28,-18,228.18341064453125,40.80546951293945,-1.5445207357406616
1748938422793,-1678,-51,1944,0,-11,0,-16,28,-19,228.18341064453125,40.80546951293945,-1.5445207357406616
1748938422794,-1678,-51,1944,0,-11,0,-16,28,-19,228.18115234375,40.80717086791992,-1.5369014739990234
1748938422887,-1678,-51,1944,0,-11,0,-16,28,-19,228.18115234375,40.80717086791992,-1.5369014739990234
1748938422888,-1678,-51,1944,0,-11,0,-16,28,-19,228.171142578125,40.79712677001953,-1.5360851287841797
1748938422995,-1678,-52,1944,0,-11,0,-16,28,-18,228.171142578125,40.79712677001953,-1.5360851287841797
1748938422995,-1678,-52,1944,0,-11,0,-16,28,-18,228.17523193359375,40.79853820800781,-1.5465924739837646
1748938423088,-1678,-52,1944,0,-11,0,-17,28,-17,228.17523193359375,40.79853820800781,-1.5465924739837646
1748938423089,-1678,-52,1944,0,-11,0,-17,28,-17,228.18414306640625,40.79636001586914,-1.5455244779586792
1748938423199,-1678,-52,1944,0,-11,0,-17,28,-17,228.18414306640625,40.79636001586914,-1.5455244779586792
1748938423200,-1678,-52,1944,0,-11,0,-17,28,-17,228.19061279296875,40.799659729003906,-1.5484801530838013
1748938423306,-1678,-52,1944,0,-11,0,-17,28,-17,228.1983642578125,40.80415725708008,-1.54527747631073
1748938423307,-1678,-52,1944,0,-11,0,-16,28,-17,228.1983642578125,40.80415725708008,-1.54527747631073
1748938423416,-1678,-52,1944,0,-11,0,-16,28,-17,228.19981384277344,40.801170349121094,-1.5518261194229126
1748938423417,-1678,-52,1944,0,-11,0,-17,28,-17,228.19981384277344,40.801170349121094,-1.5518261194229126
1748938423525,-1678,-52,1944,0,-11,0,-16,29,-16,228.19981384277344,40.801170349121094,-1.5518261194229126
1748938423526,-1678,-52,1944,0,-11,0,-16,29,-16,228.21823120117188,40.79654312133789,-1.5488377809524536
1748938423618,-1678,-52,1944,0,-11,0,-17,28,-18,228.21823120117188,40.79654312133789,-1.5488377809524536
1748938423619,-1678,-52,1944,0,-11,0,-17,28,-18,228.2300262451172,40.7963981628418,-1.5431219339370728
1748938423727,-1678,-52,1944,0,-11,0,-17,28,-18,228.2300262451172,40.7963981628418,-1.5431219339370728
1748938423728,-1678,-52,1944,0,-11,0,-17,28,-18,228.2164306640625,40.794708251953125,-1.5440548658370972
1748938423835,-1678,-52,1944,0,-11,0,-17,28,-18,228.218994140625,40.795589447021484,-1.5428245067596436
1748938423836,-1678,-51,1944,0,-11,0,-16,28,-17,228.218994140625,40.795589447021484,-1.5428245067596436
1748938423943,-1678,-52,1944,0,-11,0,-16,28,-17,228.218994140625,40.795589447021484,-1.5428245067596436
1748938423944,-1678,-52,1944,0,-11,0,-16,28,-17,228.22677612304688,40.792236328125,-1.547296166419983
1748938424036,-1678,-52,1944,0,-11,0,-16,28,-18,228.22677612304688,40.792236328125,-1.547296166419983
1748938424036,-1678,-52,1944,0,-11,0,-16,28,-18,228.2320556640625,40.79542541503906,-1.5443800687789917
1748938424146,-1678,-52,1944,0,-11,0,-16,28,-18,228.2320556640625,40.79542541503906,-1.5443800687789917
1748938424147,-1678,-52,1944,0,-11,0,-16,28,-18,228.2447509765625,40.795440673828125,-1.5457794666290283
1748938424254,-1678,-52,1944,0,-11,0,-16,28,-18,228.2447509765625,40.795440673828125,-1.5457794666290283
1748938424254,-1678,-52,1944,0,-11,0,-16,28,-18,228.24740600585938,40.78643035888672,-1.5500519275665283
1748938424346,-1678,-52,1944,0,-11,0,-16,28,-18,228.24740600585938,40.78643035888672,-1.5500519275665283
1748938424347,-1678,-52,1944,0,-11,0,-16,28,-18,228.26150512695312,40.78581237792969,-1.546560525894165
1748938424455,-1678,-52,1945,0,-11,0,-16,27,-17,228.26150512695312,40.78581237792969,-1.546560525894165
1748938424456,-1678,-52,1945,0,-11,0,-16,27,-17,228.24826049804688,40.785980224609375,-1.5444972515106201
1748938424564,-1678,-52,1945,0,-11,0,-16,27,-17,228.2239532470703,40.786338806152344,-1.5378106832504272
1748938424565,-1678,-52,1945,0,-11,0,-16,28,-18,228.2239532470703,40.786338806152344,-1.5378106832504272
1748938424673,-1678,-52,1945,0,-11,0,-17,28,-17,228.2239532470703,40.786338806152344,-1.5378106832504272
1748938424674,-1678,-52,1945,0,-11,0,-17,28,-17,228.20176696777344,40.77833938598633,-1.5506891012191772
1748938424767,-1678,-52,1945,0,-11,0,-17,28,-17,228.20176696777344,40.77833938598633,-1.5506891012191772
1748938424767,-1678,-52,1945,0,-11,0,-17,28,-17,228.1903839111328,40.77833938598633,-1.5492662191390991
1748938424876,-1678,-52,1945,0,-11,0,-17,28,-18,228.1903839111328,40.77833938598633,-1.5492662191390991
1748938424877,-1678,-52,1945,0,-11,0,-17,28,-18,228.1809539794922,40.778236389160156,-1.5442419052124023
1748938424970,-1678,-51,1945,0,-11,0,-17,28,-18,228.1809539794922,40.778236389160156,-1.5442419052124023
1748938424971,-1678,-51,1945,0,-11,0,-17,28,-18,228.17684936523438,40.78094482421875,-1.5495553016662598
1748938425093,-1678,-52,1945,0,-11,0,-17,28,-17,228.17684936523438,40.78094482421875,-1.5495553016662598
1748938425093,-1678,-52,1945,0,-11,0,-17,28,-17,228.17471313476562,40.77987289428711,-1.55359947681427
1748938425186,-1678,-52,1945,0,-11,0,-16,28,-18,228.17471313476562,40.77987289428711,-1.55359947681427
1748938425187,-1678,-52,1945,0,-11,0,-16,28,-18,228.171142578125,40.78038787841797,-1.5415974855422974
1748938425280,-1678,-52,1944,0,-11,0,-15,28,-17,228.171142578125,40.78038787841797,-1.5415974855422974
1748938425280,-1678,-52,1944,0,-11,0,-15,28,-17,228.16250610351562,40.78776931762695,-1.5437895059585571
1748938425373,-1677,-52,1946,0,-11,0,-16,28,-18,228.16250610351562,40.78776931762695,-1.5437895059585571
1748938425374,-1677,-52,1946,0,-11,0,-16,28,-18,228.16754150390625,40.77558135986328,-1.544367790222168
1748938425482,-1680,-52,1943,0,-11,0,-16,28,-17,228.16754150390625,40.77558135986328,-1.544367790222168
1748938425483,-1680,-52,1943,0,-11,0,-16,28,-17,228.1756591796875,40.793670654296875,-1.5500080585479736
1748938425591,-1680,-52,1943,0,-11,0,-16,28,-17,228.1756591796875,40.793670654296875,-1.5500080585479736
1748938425592,-1680,-52,1943,0,-11,0,-16,28,-17,228.19979858398438,40.82337188720703,-1.54832124710083
1748938425698,-1679,-52,1944,0,-11,0,-17,28,-17,228.19979858398438,40.82337188720703,-1.54832124710083
1748938425698,-1679,-52,1944,0,-11,0,-17,28,-17,228.22711181640625,40.80726623535156,-1.5512683391571045
1748938425788,-1677,-52,1946,0,-11,0,-17,28,-18,228.22711181640625,40.80726623535156,-1.5512683391571045
1748938425789,-1677,-52,1946,0,-11,0,-17,28,-18,228.21414184570312,40.77933883666992,-1.548360824584961
1748938425899,-1677,-52,1945,0,-11,0,-17,27,-16,228.21414184570312,40.77933883666992,-1.548360824584961
1748938425900,-1677,-52,1945,0,-11,0,-17,27,-16,228.21038818359375,40.764678955078125,-1.5580214262008667
1748938426009,-1678,-51,1945,0,-11,0,-17,27,-18,228.21038818359375,40.764678955078125,-1.5580214262008667
1748938426010,-1678,-51,1945,0,-11,0,-17,27,-18,228.2187042236328,40.76818084716797,-1.5455338954925537
1748938426117,-1679,-52,1945,0,-11,0,-16,28,-17,228.2187042236328,40.76818084716797,-1.5455338954925537
1748938426117,-1679,-52,1945,0,-11,0,-16,28,-17,228.2085723876953,40.778961181640625,-1.5460455417633057
1748938426273,-1678,-52,1945,0,-11,0,-16,28,-18,228.2085723876953,40.778961181640625,-1.5460455417633057
1748938426274,-1678,-52,1945,0,-11,0,-16,28,-18,228.22010803222656,40.77752685546875,-1.5476261377334595
1748938426327,-1678,-52,1946,0,-11,0,-16,27,-18,228.22010803222656,40.77752685546875,-1.5476261377334595
1748938426327,-1678,-52,1946,0,-11,0,-16,27,-18,228.20364379882812,40.77583312988281,-1.5491881370544434
1748938426428,-1678,-52,1945,0,-11,0,-17,28,-18,228.20364379882812,40.77583312988281,-1.5491881370544434
1748938426429,-1678,-52,1945,0,-11,0,-17,28,-18,228.1938018798828,40.7733154296875,-1.5489870309829712
1748938426537,-1678,-52,1945,0,-11,0,-17,28,-18,228.21421813964844,40.78164291381836,-1.5477256774902344
1748938426538,-1678,-52,1945,0,-11,0,-16,28,-18,228.21421813964844,40.78164291381836,-1.5477256774902344
1748938426645,-1678,-52,1945,0,-11,0,-16,27,-18,228.21421813964844,40.78164291381836,-1.5477256774902344
1748938426645,-1678,-52,1945,0,-11,0,-16,27,-18,228.20484924316406,40.782325744628906,-1.5490329265594482
1748938426755,-1678,-52,1945,0,-11,0,-17,28,-17,228.20484924316406,40.782325744628906,-1.5490329265594482
1748938426755,-1678,-52,1945,0,-11,0,-17,28,-17,228.21087646484375,40.777130126953125,-1.5507973432540894
1748938426832,-1678,-52,1945,0,-11,0,-16,27,-17,228.21087646484375,40.777130126953125,-1.5507973432540894
1748938426832,-1678,-52,1945,0,-11,0,-16,27,-17,228.20828247070312,40.77720642089844,-1.5522562265396118
1748938426957,-1678,-52,1945,0,-11,0,-16,27,-17,228.22396850585938,40.7793083190918,-1.5421371459960938
1748938426957,-1678,-51,1945,0,-11,0,-17,28,-18,228.22396850585938,40.7793083190918,-1.5421371459960938
1748938427050,-1678,-52,1945,0,-11,0,-17,28,-18,228.22396850585938,40.7793083190918,-1.5421371459960938
1748938427050,-1678,-52,1945,0,-11,0,-17,28,-18,228.1865997314453,40.783668518066406,-1.5472259521484375
1748938427175,-1678,-52,1945,0,-11,0,-17,28,-18,228.1865997314453,40.783668518066406,-1.5472259521484375
1748938427175,-1678,-52,1945,0,-11,0,-17,28,-18,228.1707305908203,40.78666687011719,-1.5468858480453491
1748938427252,-1678,-52,1945,0,-11,0,-17,28,-18,228.1707305908203,40.78666687011719,-1.5468858480453491
1748938427252,-1678,-52,1945,0,-11,0,-17,28,-18,228.1576690673828,40.78496551513672,-1.552491545677185
1748938427376,-1678,-52,1945,0,-11,0,-17,28,-19,228.1576690673828,40.78496551513672,-1.552491545677185
1748938427376,-1678,-52,1945,0,-11,0,-17,28,-19,228.14886474609375,40.79002380371094,-1.544670581817627
1748938427452,-1678,-52,1945,0,-11,0,-17,28,-17,228.14886474609375,40.79002380371094,-1.544670581817627
1748938427453,-1678,-52,1945,0,-11,0,-17,28,-17,228.1484375,40.784366607666016,-1.5564796924591064
1748938427577,-1678,-52,1945,0,-11,0,-17,28,-17,228.16482543945312,40.78690719604492,-1.5537433624267578
1748938427577,-1678,-52,1945,0,-11,0,-16,28,-16,228.16482543945312,40.78690719604492,-1.5537433624267578
1748938427671,-1678,-52,1945,0,-11,0,-17,27,-18,228.16482543945312,40.78690719604492,-1.5537433624267578
1748938427671,-1678,-52,1945,0,-11,0,-17,27,-18,228.1649932861328,40.791629791259766,-1.5448501110076904
1748938427780,-1678,-52,1945,0,-11,0,-17,27,-17,228.1649932861328,40.791629791259766,-1.5448501110076904
1748938427781,-1678,-52,1945,0,-11,0,-17,27,-17,228.15438842773438,40.78582763671875,-1.5546505451202393
1748938427890,-1678,-52,1945,0,-11,0,-16,27,-18,228.15438842773438,40.78582763671875,-1.5546505451202393
1748938427890,-1678,-52,1945,0,-11,0,-16,27,-18,228.1556396484375,40.79206848144531,-1.5397802591323853
1748938427968,-1679,-51,1944,0,-11,0,-17,27,-18,228.1556396484375,40.79206848144531,-1.5397802591323853
1748938427968,-1679,-51,1944,0,-11,0,-17,27,-18,228.15328979492188,40.785400390625,-1.537933588027954
1748938428091,-1677,-52,1946,0,-11,0,-16,28,-17,228.15328979492188,40.785400390625,-1.537933588027954
1748938428091,-1677,-52,1946,0,-11,0,-16,28,-17,228.14393615722656,40.77333068847656,-1.5448603630065918
1748938428214,-1677,-52,1946,0,-11,0,-16,28,-17,228.15921020507812,40.7852783203125,-1.5335832834243774
1748938428214,-1678,-52,1945,0,-11,0,-15,27,-18,228.15921020507812,40.7852783203125,-1.5335832834243774
1748938428309,-1678,-52,1945,0,-11,0,-15,27,-18,228.14224243164062,40.77412414550781,-1.5543718338012695
1748938428309,-1678,-51,1945,0,-11,0,-17,28,-17,228.14224243164062,40.77412414550781,-1.5543718338012695
1748938428389,-1678,-52,1945,0,-11,0,-16,28,-18,228.14224243164062,40.77412414550781,-1.5543718338012695
1748938428390,-1678,-52,1945,0,-11,0,-16,28,-18,228.1411895751953,40.779296875,-1.5454258918762207
1748938428496,-1678,-52,1945,0,-11,0,-17,28,-17,228.1411895751953,40.779296875,-1.5454258918762207
1748938428497,-1678,-52,1945,0,-11,0,-17,28,-17,228.1371307373047,40.78345489501953,-1.544307827949524
1748938428590,-1678,-52,1945,0,-11,0,-17,28,-17,228.1371307373047,40.78345489501953,-1.544307827949524
1748938428591,-1678,-52,1945,0,-11,0,-17,28,-17,228.13548278808594,40.77280044555664,-1.5503501892089844
1748938428697,-1678,-52,1945,0,-11,0,-17,28,-17,228.13548278808594,40.77280044555664,-1.5503501892089844
1748938428698,-1678,-52,1945,0,-11,0,-17,28,-17,228.152587890625,40.78033447265625,-1.5457227230072021
1748938428806,-1678,-52,1945,0,-11,0,-17,28,-19,228.152587890625,40.78033447265625,-1.5457227230072021
1748938428806,-1678,-52,1945,0,-11,0,-17,28,-19,228.1563262939453,40.78673553466797,-1.5365564823150635
1748938428915,-1679,-52,1945,0,-11,0,-16,27,-17,228.1563262939453,40.78673553466797,-1.5365564823150635
1748938428916,-1679,-52,1945,0,-11,0,-16,27,-17,228.13351440429688,40.77949523925781,-1.5475965738296509
1748938429022,-1679,-52,1946,0,-11,0,-17,28,-17,228.13351440429688,40.77949523925781,-1.5475965738296509
1748938429023,-1679,-52,1946,0,-11,0,-17,28,-17,228.1209716796875,40.777442932128906,-1.5497674942016602
1748938429131,-1679,-52,1946,0,-11,0,-17,28,-17,228.12864685058594,40.781768798828125,-1.540470004081726
1748938429132,-1679,-52,1946,0,-11,0,-17,28,-19,228.12864685058594,40.781768798828125,-1.540470004081726
1748938429225,-1679,-52,1946,0,-11,0,-17,28,-17,228.12864685058594,40.781768798828125,-1.540470004081726
1748938429226,-1679,-52,1946,0,-11,0,-17,28,-17,228.1104278564453,40.77573776245117,-1.5487468242645264
1748938429333,-1679,-52,1946,0,-11,0,-17,28,-18,228.1104278564453,40.77573776245117,-1.5487468242645264
1748938429334,-1679,-52,1946,0,-11,0,-17,28,-18,228.12008666992188,40.779396057128906,-1.5433603525161743
1748938429440,-1679,-52,1946,0,-11,0,-17,28,-18,228.11837768554688,40.778507232666016,-1.5446412563323975
1748938429441,-1679,-52,1946,0,-11,0,-17,28,-18,228.11837768554688,40.778507232666016,-1.5446412563323975
1748938429564,-1679,-52,1946,0,-11,0,-17,28,-18,228.12820434570312,40.77599334716797,-1.5497692823410034
1748938429564,-1679,-52,1946,0,-11,0,-17,28,-17,228.12820434570312,40.77599334716797,-1.5497692823410034
1748938429672,-1679,-52,1946,0,-11,0,-17,28,-17,228.14137268066406,40.78874969482422,-1.5399880409240723
1748938429673,-1679,-51,1946,0,-11,0,-16,28,-18,228.14137268066406,40.78874969482422,-1.5399880409240723
1748938429796,-1678,-52,1945,0,-11,0,-16,28,-18,228.14137268066406,40.78874969482422,-1.5399880409240723
1748938429797,-1678,-52,1945,0,-11,0,-16,28,-18,228.15509033203125,40.789485931396484,-1.5360668897628784
1748938429874,-1680,-51,1944,0,-11,0,-16,28,-18,228.15509033203125,40.789485931396484,-1.5360668897628784
1748938429875,-1680,-51,1944,0,-11,0,-16,28,-18,228.16896057128906,40.7981071472168,-1.532876968383789
1748938429967,-1680,-51,1944,0,-11,0,-17,28,-17,228.16896057128906,40.7981071472168,-1.532876968383789
1748938429967,-1680,-51,1944,0,-11,0,-17,28,-17,228.185546875,40.79877471923828,-1.5369175672531128
1748938430060,-1680,-51,1944,0,-11,0,-16,28,-18,228.185546875,40.79877471923828,-1.5369175672531128
1748938430060,-1680,-51,1944,0,-11,0,-16,28,-18,228.2005157470703,40.806846618652344,-1.5250011682510376
1748938430170,-1677,-51,1946,0,-11,0,-16,28,-18,228.2005157470703,40.806846618652344,-1.5250011682510376
1748938430170,-1677,-51,1946,0,-11,0,-16,28,-18,228.21255493164062,40.77992248535156,-1.525294542312622
1748938430293,-1677,-51,1946,0,-11,0,-17,28,-18,228.21255493164062,40.77992248535156,-1.525294542312622
1748938430293,-1677,-51,1946,0,-11,0,-17,28,-18,228.2093963623047,40.75714111328125,-1.5367215871810913
1748938430371,-1679,-51,1945,0,-11,0,-17,28,-17,228.2093963623047,40.75714111328125,-1.5367215871810913
1748938430371,-1679,-51,1945,0,-11,0,-17,28,-17,228.20114135742188,40.77157211303711,-1.5392571687698364
1748938430480,-1680,-52,1944,0,-11,0,-17,29,-18,228.20114135742188,40.77157211303711,-1.5392571687698364
1748938430481,-1680,-52,1944,0,-11,0,-17,29,-18,228.20030212402344,40.803462982177734,-1.5397664308547974
1748938430604,-1680,-52,1944,0,-11,0,-17,29,-18,228.20863342285156,40.811065673828125,-1.537662148475647
1748938430605,-1678,-51,1945,0,-11,0,-17,28,-19,228.20863342285156,40.811065673828125,-1.537662148475647
1748938430697,-1678,-51,1945,0,-11,0,-17,27,-17,228.20863342285156,40.811065673828125,-1.537662148475647
1748938430697,-1678,-51,1945,0,-11,0,-17,27,-17,228.19595336914062,40.787864685058594,-1.5365242958068848
1748938430806,-1678,-51,1945,0,-11,0,-18,28,-17,228.19595336914062,40.787864685058594,-1.5365242958068848
1748938430807,-1678,-51,1945,0,-11,0,-18,28,-17,228.1887664794922,40.775291442871094,-1.541473150253296
1748938430914,-1678,-51,1945,0,-11,0,-17,28,-16,228.1887664794922,40.775291442871094,-1.541473150253296
1748938430914,-1678,-51,1945,0,-11,0,-17,28,-16,228.20506286621094,40.773738861083984,-1.5382730960845947
1748938431006,-1678,-51,1945,0,-11,0,-18,27,-18,228.20506286621094,40.773738861083984,-1.5382730960845947
1748938431007,-1678,-51,1945,0,-11,0,-18,27,-18,228.2104034423828,40.776092529296875,-1.530593991279602
1748938431116,-1679,-52,1944,0,-11,0,-17,28,-17,228.2104034423828,40.776092529296875,-1.530593991279602
1748938431116,-1679,-52,1944,0,-11,0,-17,28,-17,228.20932006835938,40.778602600097656,-1.5364317893981934
1748938431209,-1678,-51,1945,0,-11,0,-16,29,-17,228.20932006835938,40.778602600097656,-1.5364317893981934
1748938431210,-1678,-51,1945,0,-11,0,-16,29,-17,228.1983642578125,40.77348327636719,-1.5390713214874268
1748938431318,-1679,-52,1944,0,-11,0,-17,28,-17,228.1983642578125,40.77348327636719,-1.5390713214874268
1748938431318,-1679,-52,1944,0,-11,0,-17,28,-17,228.20651245117188,40.790714263916016,-1.5484801530838013
1748938431412,-1678,-51,1944,0,-11,0,-17,28,-18,228.20651245117188,40.790714263916016,-1.5484801530838013
1748938431412,-1678,-51,1944,0,-11,0,-17,28,-18,228.20909118652344,40.79357147216797,-1.5393363237380981
1748938431535,-1678,-51,1944,0,-11,0,-17,28,-18,228.21461486816406,40.78880310058594,-1.5407941341400146
1748938431536,-1678,-52,1945,0,-11,0,-17,28,-18,228.21461486816406,40.78880310058594,-1.5407941341400146
1748938431613,-1678,-52,1945,0,-11,0,-17,28,-18,228.2336883544922,40.800537109375,-1.5364676713943481
1748938431614,-1679,-51,1944,0,-11,0,-16,28,-18,228.2336883544922,40.800537109375,-1.5364676713943481
1748938431722,-1678,-52,1944,0,-11,0,-17,27,-17,228.2336883544922,40.800537109375,-1.5364676713943481
1748938431723,-1678,-52,1944,0,-11,0,-17,27,-17,228.2183074951172,40.79212951660156,-1.5469400882720947
1748938431846,-1678,-52,1944,0,-11,0,-17,27,-17,228.21920776367188,40.79408645629883,-1.5484145879745483
1748938431846,-1678,-51,1944,0,-11,0,-16,28,-17,228.21920776367188,40.79408645629883,-1.5484145879745483
1748938431923,-1678,-52,1944,0,-11,0,-17,27,-18,228.21920776367188,40.79408645629883,-1.5484145879745483
1748938431924,-1678,-52,1944,0,-11,0,-17,27,-18,228.23907470703125,40.799049377441406,-1.5413669347763062
1748938432032,-1678,-52,1944,0,-11,0,-17,27,-18,228.23696899414062,40.797542572021484,-1.5445666313171387
1748938432033,-1678,-52,1944,0,-11,0,-17,28,-18,228.23696899414062,40.797542572021484,-1.5445666313171387
1748938432140,-1678,-52,1944,0,-11,0,-17,28,-18,228.23696899414062,40.797542572021484,-1.5445666313171387
1748938432140,-1678,-52,1944,0,-11,0,-17,28,-18,228.22914123535156,40.794281005859375,-1.5456598997116089
1748938432251,-1679,-51,1943,0,-11,0,-17,28,-17,228.22914123535156,40.794281005859375,-1.5456598997116089
1748938432252,-1679,-51,1943,0,-11,0,-17,28,-17,228.21685791015625,40.801109313964844,-1.5423390865325928
1748938432344,-1678,-52,1944,0,-11,0,-17,27,-18,228.21685791015625,40.801109313964844,-1.5423390865325928
1748938432345,-1678,-52,1944,0,-11,0,-17,27,-18,228.21380615234375,40.793739318847656,-1.542931079864502
1748938432453,-1678,-52,1944,0,-11,0,-16,28,-17,228.21380615234375,40.793739318847656,-1.542931079864502
1748938432453,-1678,-52,1944,0,-11,0,-16,28,-17,228.22227478027344,40.79087829589844,-1.5417803525924683
1748938432612,-1678,-52,1944,0,-11,0,-17,27,-17,228.22227478027344,40.79087829589844,-1.5417803525924683
1748938432614,-1678,-52,1944,0,-11,0,-17,27,-17,228.22195434570312,40.7874755859375,-1.5440003871917725
1748938432665,-1678,-52,1944,0,-11,0,-16,27,-18,228.22195434570312,40.7874755859375,-1.5440003871917725
1748938432677,-1678,-52,1944,0,-11,0,-16,27,-18,228.24288940429688,40.78815841674805,-1.5429790019989014
1748938432767,-1678,-52,1944,0,-11,0,-16,27,-18,228.24395751953125,40.78388595581055,-1.548771619796753
1748938432767,-1678,-52,1944,0,-11,0,-17,28,-16,228.24395751953125,40.78388595581055,-1.548771619796753
1748938432876,-1678,-52,1944,0,-11,0,-17,28,-16,228.24876403808594,40.7921257019043,-1.5413774251937866
1748938432876,-1678,-52,1944,0,-11,0,-17,28,-17,228.24876403808594,40.7921257019043,-1.5413774251937866
1748938432952,-1678,-52,1944,0,-11,0,-16,28,-17,228.24876403808594,40.7921257019043,-1.5413774251937866
1748938432953,-1678,-52,1944,0,-11,0,-16,28,-17,228.24099731445312,40.79688262939453,-1.5405937433242798
1748938433076,-1678,-52,1944,0,-11,0,-16,28,-18,228.24099731445312,40.79688262939453,-1.5405937433242798
1748938433076,-1678,-52,1944,0,-11,0,-16,28,-18,228.2554168701172,40.791053771972656,-1.5478328466415405
1748938433185,-1678,-52,1944,0,-11,0,-17,28,-17,228.2554168701172,40.791053771972656,-1.5478328466415405
1748938433185,-1678,-52,1944,0,-11,0,-17,28,-17,228.26614379882812,40.7828483581543,-1.5606123208999634
1748938433294,-1679,-52,1944,0,-11,0,-16,27,-17,228.26614379882812,40.7828483581543,-1.5606123208999634
1748938433295,-1679,-52,1944,0,-11,0,-16,27,-17,228.28504943847656,40.79718017578125,-1.5479493141174316
1748938433372,-1679,-52,1944,0,-11,0,-17,27,-17,228.28504943847656,40.79718017578125,-1.5479493141174316
1748938433372,-1679,-52,1944,0,-11,0,-17,27,-17,228.27500915527344,40.796783447265625,-1.5530683994293213
1748938433481,-1679,-52,1944,0,-11,0,-17,27,-17,228.27500915527344,40.796783447265625,-1.5530683994293213
1748938433481,-1679,-52,1944,0,-11,0,-17,27,-17,228.25537109375,40.79716491699219,-1.5545929670333862
1748938433574,-1679,-52,1944,0,-11,0,-17,28,-17,228.25537109375,40.79716491699219,-1.5545929670333862
1748938433574,-1679,-52,1944,0,-11,0,-17,28,-17,228.23631286621094,40.799583435058594,-1.5515815019607544
1748938433698,-1679,-52,1944,0,-11,0,-17,28,-17,228.23895263671875,40.80290985107422,-1.5474631786346436
1748938433699,-1679,-52,1944,0,-11,0,-17,27,-17,228.23895263671875,40.80290985107422,-1.5474631786346436
1748938433807,-1679,-52,1944,0,-11,0,-17,27,-18,228.23895263671875,40.80290985107422,-1.5474631786346436
1748938433808,-1679,-52,1944,0,-11,0,-17,27,-18,228.2425079345703,40.803916931152344,-1.5467171669006348
1748938433900,-1679,-52,1943,0,-11,0,-16,28,-17,228.2425079345703,40.803916931152344,-1.5467171669006348
1748938433901,-1679,-52,1943,0,-11,0,-16,28,-17,228.24517822265625,40.80845260620117,-1.5388175249099731
1748938434010,-1680,-51,1943,0,-11,0,-15,28,-16,228.24517822265625,40.80845260620117,-1.5388175249099731
1748938434011,-1680,-51,1943,0,-11,0,-15,28,-16,228.25527954101562,40.82126235961914,-1.5410112142562866
1748938434102,-1675,-53,1947,0,-11,0,-16,28,-17,228.25527954101562,40.82126235961914,-1.5410112142562866
1748938434103,-1675,-53,1947,0,-11,0,-16,28,-17,228.26617431640625,40.7728157043457,-1.5449018478393555
1748938434209,-1681,-51,1940,0,-11,0,-16,27,-17,228.26617431640625,40.7728157043457,-1.5449018478393555
1748938434209,-1681,-51,1940,0,-11,0,-16,27,-17,228.26397705078125,40.82245635986328,-1.5409477949142456
1748938434317,-1681,-51,1940,0,-11,0,-16,27,-18,228.26397705078125,40.82245635986328,-1.5409477949142456
1748938434317,-1681,-51,1940,0,-11,0,-16,27,-18,228.25576782226562,40.87781524658203,-1.5233641862869263
1748938434412,-1681,-51,1940,0,-11,0,-16,27,-18,228.2327423095703,40.818267822265625,-1.53263521194458
1748938434413,-1677,-52,1946,0,-11,0,-16,28,-18,228.2327423095703,40.818267822265625,-1.53263521194458
1748938434521,-1679,-52,1943,0,-11,0,-14,28,-18,228.2327423095703,40.818267822265625,-1.53263521194458
1748938434521,-1679,-52,1943,0,-11,0,-14,28,-18,228.21841430664062,40.81346130371094,-1.5376800298690796
1748938434628,-1675,-52,1948,0,-11,0,-16,28,-17,228.21841430664062,40.81346130371094,-1.5376800298690796
1748938434629,-1675,-52,1948,0,-11,0,-16,28,-17,228.2150421142578,40.76896667480469,-1.5387318134307861
1748938434721,-1682,-51,1941,0,-11,0,-13,27,-18,228.2150421142578,40.76896667480469,-1.5387318134307861
1748938434722,-1682,-51,1941,0,-11,0,-13,27,-18,228.23098754882812,40.830780029296875,-1.5250599384307861
1748938434831,-1679,-51,1943,0,-11,0,-16,27,-18,228.23098754882812,40.830780029296875,-1.5250599384307861
1748938434833,-1679,-51,1943,0,-11,0,-16,27,-18,228.21804809570312,40.839717864990234,-1.540970802307129
1748938434939,-1679,-51,1943,0,-11,0,-16,28,-18,228.21804809570312,40.839717864990234,-1.540970802307129
1748938434940,-1679,-51,1943,0,-11,0,-16,28,-18,228.2156982421875,40.839725494384766,-1.5412195920944214
1748938435065,-1679,-51,1943,0,-11,0,-16,28,-18,228.21937561035156,40.817935943603516,-1.5392183065414429
1748938435067,-1679,-52,1945,0,-11,0,-16,28,-18,228.21937561035156,40.817935943603516,-1.5392183065414429
1748938435142,-1678,-52,1946,0,-11,0,-16,28,-18,228.21937561035156,40.817935943603516,-1.5392183065414429
1748938435142,-1678,-52,1946,0,-11,0,-16,28,-18,228.2242431640625,40.78911590576172,-1.5454092025756836
1748938435250,-1678,-52,1946,0,-11,0,-16,28,-18,228.23175048828125,40.79091262817383,-1.5400688648223877
1748938435251,-1679,-51,1944,0,-11,0,-17,28,-18,228.23175048828125,40.79091262817383,-1.5400688648223877
1748938435360,-1678,-51,1945,0,-11,0,-16,28,-19,228.23175048828125,40.79091262817383,-1.5400688648223877
1748938435361,-1678,-51,1945,0,-11,0,-16,28,-19,228.22372436523438,40.787349700927734,-1.536833643913269
1748938435449,-1678,-51,1945,0,-11,0,-16,28,-17,228.22372436523438,40.787349700927734,-1.536833643913269
1748938435450,-1678,-51,1945,0,-11,0,-16,28,-17,228.22122192382812,40.7840576171875,-1.5386784076690674
1748938435592,-1678,-51,1945,0,-11,0,-16,28,-17,228.2060546875,40.78181838989258,-1.5345094203948975
1748938435592,-1678,-51,1945,0,-11,0,-16,28,-18,228.2060546875,40.78181838989258,-1.5345094203948975
1748938435669,-1678,-52,1944,0,-11,0,-17,27,-18,228.2060546875,40.78181838989258,-1.5345094203948975
1748938435670,-1678,-52,1944,0,-11,0,-17,27,-18,228.18800354003906,40.78703308105469,-1.5401126146316528
1748938435778,-1678,-51,1945,0,-11,0,-15,28,-18,228.18800354003906,40.78703308105469,-1.5401126146316528
1748938435779,-1678,-51,1945,0,-11,0,-15,28,-18,228.17742919921875,40.79074478149414,-1.533799409866333
1748938435869,-1678,-52,1944,0,-11,0,-17,27,-18,228.17742919921875,40.79074478149414,-1.533799409866333
1748938435885,-1678,-52,1944,0,-11,0,-17,27,-18,228.16256713867188,40.79016876220703,-1.5382914543151855
1748938435977,-1679,-52,1945,0,-11,0,-17,28,-19,228.16256713867188,40.79016876220703,-1.5382914543151855
1748938435977,-1679,-52,1945,0,-11,0,-17,28,-19,228.16378784179688,40.791664123535156,-1.5409718751907349
1748938436086,-1678,-52,1945,0,-11,0,-16,28,-19,228.16378784179688,40.791664123535156,-1.5409718751907349
1748938436087,-1678,-52,1945,0,-11,0,-16,28,-19,228.145263671875,40.796714782714844,-1.530064344406128
1748938436179,-1678,-52,1945,0,-11,0,-17,27,-18,228.145263671875,40.796714782714844,-1.530064344406128
1748938436179,-1678,-52,1945,0,-11,0,-17,27,-18,228.12167358398438,40.7861328125,-1.5444835424423218
1748938436288,-1678,-52,1945,0,-11,0,-14,28,-19,228.12167358398438,40.7861328125,-1.5444835424423218
1748938436288,-1678,-52,1945,0,-11,0,-14,28,-19,228.1405487060547,40.7939567565918,-1.5323971509933472
1748938436397,-1679,-51,1944,0,-11,0,-16,28,-18,228.1405487060547,40.7939567565918,-1.5323971509933472
1748938436397,-1679,-51,1944,0,-11,0,-16,28,-18,228.13064575195312,40.79085159301758,-1.5390143394470215
1748938436491,-1678,-52,1945,0,-11,0,-16,28,-18,228.13064575195312,40.79085159301758,-1.5390143394470215
1748938436491,-1678,-52,1945,0,-11,0,-16,28,-18,228.12135314941406,40.788169860839844,-1.5473283529281616
1748938436601,-1678,-52,1944,0,-11,0,-16,28,-18,228.12135314941406,40.788169860839844,-1.5473283529281616
1748938436601,-1678,-52,1944,0,-11,0,-16,28,-18,228.12391662597656,40.78968048095703,-1.540717601776123
1748938436691,-1678,-52,1945,0,-11,0,-16,28,-17,228.12391662597656,40.78968048095703,-1.540717601776123
1748938436691,-1678,-52,1945,0,-11,0,-16,28,-17,228.12237548828125,40.7866325378418,-1.5435057878494263
1748938436802,-1678,-51,1944,0,-11,0,-17,28,-19,228.12237548828125,40.7866325378418,-1.5435057878494263
1748938436803,-1678,-51,1944,0,-11,0,-17,28,-19,228.12030029296875,40.78956985473633,-1.5394370555877686
1748938436911,-1679,-51,1944,0,-11,0,-14,27,-19,228.12030029296875,40.78956985473633,-1.5394370555877686
1748938436912,-1679,-51,1944,0,-11,0,-14,27,-19,228.11892700195312,40.79322052001953,-1.5346463918685913
1748938437004,-1679,-51,1945,0,-11,0,-16,28,-18,228.11892700195312,40.79322052001953,-1.5346463918685913
1748938437005,-1679,-51,1945,0,-11,0,-16,28,-18,228.10777282714844,40.79316329956055,-1.5339314937591553
1748938437113,-1678,-52,1945,0,-11,0,-15,28,-18,228.10777282714844,40.79316329956055,-1.5339314937591553
1748938437114,-1678,-52,1945,0,-11,0,-15,28,-18,228.08892822265625,40.78955841064453,-1.5468003749847412
1748938437221,-1678,-52,1945,0,-11,0,-17,27,-18,228.08892822265625,40.78955841064453,-1.5468003749847412
1748938437222,-1678,-52,1945,0,-11,0,-17,27,-18,228.06704711914062,40.786319732666016,-1.556560754776001
1748938437329,-1678,-52,1945,0,-11,0,-16,27,-19,228.06704711914062,40.786319732666016,-1.556560754776001
1748938437330,-1678,-52,1945,0,-11,0,-16,27,-19,228.05836486816406,40.788841247558594,-1.5548250675201416
1748938437437,-1678,-52,1945,0,-11,0,-16,28,-17,228.05836486816406,40.788841247558594,-1.5548250675201416
1748938437438,-1678,-52,1945,0,-11,0,-16,28,-17,228.0459747314453,40.78102111816406,-1.5477739572525024
1748938437531,-1678,-51,1945,0,-11,0,-16,27,-18,228.0459747314453,40.78102111816406,-1.5477739572525024
1748938437533,-1678,-51,1945,0,-11,0,-16,27,-18,228.04690551757812,40.78498840332031,-1.5398197174072266
1748938437639,-1678,-52,1944,0,-11,0,-17,27,-17,228.04690551757812,40.78498840332031,-1.5398197174072266
1748938437640,-1678,-52,1944,0,-11,0,-17,27,-17,228.029541015625,40.78280258178711,-1.5540839433670044
1748938437737,-1678,-52,1944,0,-11,0,-17,28,-18,228.029541015625,40.78280258178711,-1.5540839433670044
1748938437737,-1678,-52,1944,0,-11,0,-17,28,-18,228.0294189453125,40.791290283203125,-1.55231511592865
1748938437840,-1678,-52,1944,0,-11,0,-16,28,-18,228.0294189453125,40.791290283203125,-1.55231511592865
1748938437840,-1678,-52,1944,0,-11,0,-16,28,-18,228.0386199951172,40.79615020751953,-1.551496148109436
1748938437950,-1678,-52,1944,0,-11,0,-17,28,-18,228.0386199951172,40.79615020751953,-1.551496148109436
1748938437950,-1678,-52,1944,0,-11,0,-17,28,-18,228.034423828125,40.794090270996094,-1.5558935403823853
1748938438042,-1679,-51,1943,0,-11,0,-16,28,-19,228.034423828125,40.794090270996094,-1.5558935403823853
1748938438042,-1679,-51,1943,0,-11,0,-16,28,-19,228.0439453125,40.8066291809082,-1.539430856704712
1748938438154,-1678,-51,1944,0,-11,0,-16,28,-17,228.0439453125,40.8066291809082,-1.539430856704712
1748938438155,-1678,-51,1944,0,-11,0,-16,28,-17,228.04708862304688,40.7979850769043,-1.5450632572174072
1748938438247,-1678,-51,1944,0,-11,0,-16,28,-18,228.04708862304688,40.7979850769043,-1.5450632572174072
1748938438247,-1678,-51,1944,0,-11,0,-16,28,-18,228.06497192382812,40.80026626586914,-1.5357608795166016
1748938438360,-1678,-51,1945,0,-11,0,-17,28,-18,228.06497192382812,40.80026626586914,-1.5357608795166016
1748938438361,-1678,-51,1945,0,-11,0,-17,28,-18,228.0733642578125,40.79054641723633,-1.5399142503738403
1748938438453,-1679,-52,1944,0,-11,0,-16,27,-17,228.0733642578125,40.79054641723633,-1.5399142503738403
1748938438478,-1679,-52,1944,0,-11,0,-16,27,-17,228.06045532226562,40.8036994934082,-1.5428980588912964
1748938438570,-1678,-52,1945,0,-11,0,-18,28,-18,228.06045532226562,40.8036994934082,-1.5428980588912964
1748938438571,-1678,-52,1945,0,-11,0,-18,28,-18,228.04425048828125,40.78297805786133,-1.55393648147583
1748938438660,-1678,-52,1945,0,-11,0,-16,28,-18,228.04425048828125,40.78297805786133,-1.55393648147583
1748938438660,-1678,-52,1945,0,-11,0,-16,28,-18,228.0492706298828,40.77938461303711,-1.547655701637268
1748938438759,-1678,-52,1945,0,-11,0,-16,27,-18,228.0492706298828,40.77938461303711,-1.547655701637268
1748938438759,-1678,-52,1945,0,-11,0,-16,27,-18,228.05276489257812,40.7745475769043,-1.5503599643707275
1748938438865,-1678,-52,1945,0,-11,0,-16,28,-17,228.05276489257812,40.7745475769043,-1.5503599643707275
1748938438865,-1678,-52,1945,0,-11,0,-16,28,-17,228.0843505859375,40.77548599243164,-1.547855257987976
1748938438959,-1679,-52,1944,0,-11,0,-17,28,-18,228.0843505859375,40.77548599243164,-1.547855257987976
1748938438960,-1679,-52,1944,0,-11,0,-17,28,-18,228.0957489013672,40.782352447509766,-1.5406521558761597
1748938439064,-1679,-52,1946,0,-11,0,-16,28,-18,228.0957489013672,40.782352447509766,-1.5406521558761597
1748938439064,-1679,-52,1946,0,-11,0,-16,28,-18,228.09326171875,40.79096603393555,-1.543297529220581
1748938439175,-1678,-51,1945,0,-11,0,-17,28,-18,228.09326171875,40.79096603393555,-1.543297529220581
1748938439175,-1678,-51,1945,0,-11,0,-17,28,-18,228.0963897705078,40.783203125,-1.5490237474441528
1748938439283,-1678,-52,1945,0,-11,0,-17,27,-19,228.0963897705078,40.783203125,-1.5490237474441528
1748938439284,-1678,-52,1945,0,-11,0,-17,27,-19,228.08407592773438,40.791358947753906,-1.540229082107544
